subjectID	scanner	order	block	run	trial	onsettime	ImageLeft	ImageRight	bidIndexLeft	bidIndexRight	IsleftGo	Response	PairType	Outcome	RT	bidLeft	bidRight
BFE_356	0	2	02	1	1	2.018538e+00	1111.jpg	1105.jpg	17	12	1	u	1	1	1068.21	0.50	0.59
BFE_356	0	2	02	1	2	5.022238e+00	2115.jpg	2205.jpg	47	48	0	i	2	1	712.51	0.62	0.62
BFE_356	0	2	02	1	3	1.203015e+01	2102.jpg	2205.jpg	50	48	0	u	2	0	568.60	0.59	0.62
BFE_356	0	2	02	1	4	1.603455e+01	2120.jpg	2104.jpg	62	61	0	i	6	1	628.21	0.48	0.52
BFE_356	0	2	02	1	5	2.102356e+01	1205.jpg	1110.jpg	7	11	0	i	1	1	455.18	0.65	0.59
BFE_356	0	2	02	1	6	2.502806e+01	2218.jpg	2202.jpg	54	53	1	i	2	0	794.69	0.58	0.58
BFE_356	0	2	02	1	7	2.903245e+01	1101.jpg	1214.jpg	16	10	1	i	1	0	366.29	0.52	0.60
BFE_356	0	2	02	1	8	3.201885e+01	1218.jpg	1112.jpg	14	15	1	i	1	0	659.91	0.58	0.52
BFE_356	0	2	02	1	9	3.502263e+01	1209.jpg	1207.jpg	38	4	0	i	3	1	896.10	0.32	0.71
BFE_356	0	2	02	1	10	4.002813e+01	1105.jpg	1101.jpg	12	16	0	i	1	1	354.60	0.59	0.52
BFE_356	0	2	02	1	11	4.403260e+01	1101.jpg	1205.jpg	16	7	1	i	1	0	662.14	0.52	0.65
BFE_356	0	2	02	1	12	4.902155e+01	2217.jpg	2115.jpg	56	47	1	u	2	1	785.18	0.57	0.62
BFE_356	0	2	02	1	13	5.302607e+01	2208.jpg	2119.jpg	78	44	0	i	4	1	476.72	0.27	0.67
BFE_356	0	2	02	1	14	5.602937e+01	2204.jpg	2115.jpg	51	47	1	i	2	0	473.36	0.59	0.62
BFE_356	0	2	02	1	15	6.003387e+01	1218.jpg	1119.jpg	14	18	1	i	1	0	956.86	0.58	0.49
BFE_356	0	2	02	1	16	6.602390e+01	2205.jpg	2110.jpg	48	58	1	i	2	0	510.87	0.62	0.54
BFE_356	0	2	02	1	17	7.303182e+01	2113.jpg	2110.jpg	57	58	1	x	2	999	999000.00	0.57	0.54
BFE_356	0	2	02	1	18	7.603521e+01	1206.jpg	1119.jpg	9	18	1	u	1	1	979.54	0.62	0.49
BFE_356	0	2	02	1	19	8.102405e+01	2104.jpg	2116.jpg	61	59	1	u	6	1	598.70	0.52	0.54
BFE_356	0	2	02	1	20	8.602975e+01	2113.jpg	2216.jpg	57	52	1	u	2	1	1025.00	0.57	0.58
BFE_356	0	2	02	1	21	9.201950e+01	2206.jpg	2208.jpg	43	78	1	x	4	999	999000.00	0.69	0.27
BFE_356	0	2	02	1	22	9.602427e+01	1112.jpg	1206.jpg	15	9	0	u	1	0	294.50	0.52	0.62
BFE_356	0	2	02	1	23	1.010299e+02	1112.jpg	1110.jpg	15	11	0	u	1	0	368.86	0.52	0.59
BFE_356	0	2	02	1	24	1.080211e+02	1218.jpg	1217.jpg	14	13	1	u	1	1	465.67	0.58	0.58
BFE_356	0	2	02	1	25	1.130266e+02	2102.jpg	2217.jpg	50	56	0	i	2	1	364.12	0.59	0.57
BFE_356	0	2	02	1	26	1.180323e+02	2216.jpg	2213.jpg	52	49	0	u	2	0	350.49	0.58	0.60
BFE_356	0	2	02	1	27	1.210186e+02	1217.jpg	1111.jpg	13	17	0	u	1	0	404.16	0.58	0.50
BFE_356	0	2	02	1	28	1.240223e+02	1114.jpg	1215.jpg	19	20	0	u	5	0	408.44	0.49	0.48
BFE_356	0	2	02	1	29	1.300291e+02	2110.jpg	2204.jpg	58	51	0	i	2	1	401.69	0.54	0.59
BFE_356	0	2	02	1	30	1.340335e+02	1214.jpg	1218.jpg	10	14	0	i	1	1	373.25	0.60	0.58
BFE_356	0	2	02	1	31	1.430270e+02	1114.jpg	1120.jpg	19	21	0	u	5	0	395.78	0.49	0.47
BFE_356	0	2	02	1	32	1.480325e+02	2204.jpg	2202.jpg	51	53	1	u	2	1	414.19	0.59	0.58
BFE_356	0	2	02	1	33	1.570260e+02	2115.jpg	2213.jpg	47	49	0	i	2	1	380.74	0.62	0.60
BFE_356	0	2	02	1	34	1.600293e+02	2202.jpg	2205.jpg	53	48	0	u	2	0	505.42	0.58	0.62
BFE_356	0	2	02	1	35	1.640338e+02	1104.jpg	1214.jpg	8	10	1	u	1	1	452.96	0.63	0.60
BFE_356	0	2	02	1	36	1.700238e+02	1216.jpg	1207.jpg	37	4	0	i	3	1	318.98	0.33	0.71
BFE_356	0	2	02	1	37	1.740284e+02	1119.jpg	1104.jpg	18	8	0	i	1	1	346.37	0.49	0.63
BFE_356	0	2	02	1	38	1.810196e+02	2113.jpg	2115.jpg	57	47	1	i	2	0	427.18	0.57	0.62
BFE_356	0	2	02	1	39	1.870262e+02	1119.jpg	1101.jpg	18	16	0	i	1	1	316.57	0.49	0.52
BFE_356	0	2	02	1	40	1.980218e+02	2218.jpg	2118.jpg	54	55	1	u	2	1	456.92	0.58	0.57
BFE_356	0	2	02	1	41	2.030275e+02	2218.jpg	2216.jpg	54	52	1	u	2	1	411.21	0.58	0.58
BFE_356	0	2	02	1	42	2.090342e+02	1111.jpg	1214.jpg	17	10	1	i	1	0	396.52	0.50	0.60
BFE_356	0	2	02	1	43	2.200298e+02	1111.jpg	1112.jpg	17	15	1	u	1	1	360.89	0.50	0.52
BFE_356	0	2	02	1	44	2.230333e+02	2216.jpg	2217.jpg	52	56	0	i	2	1	637.46	0.58	0.57
