subjectID	scanner	order	block	run	trial	onsettime	ImageLeft	ImageRight	bidIndexLeft	bidIndexRight	IsleftGo	Response	PairType	Outcome	RT	bidLeft	bidRight
BFE_352	0	2	02	2	1	2.018837e+00	2113.jpg	2217.jpg	56	53	1	u	2	1	1474.43	0.58	0.64
BFE_352	0	2	02	2	2	5.022219e+00	2217.jpg	2219.jpg	53	48	0	i	2	1	727.05	0.64	0.72
BFE_352	0	2	02	2	3	1.201342e+01	2211.jpg	2217.jpg	54	53	1	u	2	1	1039.84	0.63	0.64
BFE_352	0	2	02	2	4	1.601793e+01	1121.jpg	1113.jpg	16	18	1	i	1	0	579.33	0.55	0.54
BFE_352	0	2	02	2	5	2.102355e+01	1113.jpg	1215.jpg	18	8	0	i	1	1	533.71	0.54	0.71
BFE_352	0	2	02	2	6	2.502808e+01	1102.jpg	1213.jpg	14	13	1	i	1	0	401.18	0.62	0.64
BFE_352	0	2	02	2	7	2.901590e+01	1218.jpg	1121.jpg	10	16	0	u	1	0	853.39	0.69	0.55
BFE_352	0	2	02	2	8	3.201929e+01	2114.jpg	2206.jpg	59	61	0	i	6	1	522.01	0.52	0.47
BFE_352	0	2	02	2	9	3.502263e+01	1109.jpg	1114.jpg	17	7	1	i	1	0	510.63	0.55	0.73
BFE_352	0	2	02	2	10	4.002823e+01	1112.jpg	1216.jpg	38	3	0	i	3	1	545.03	0.17	0.82
BFE_352	0	2	02	2	11	4.401602e+01	1212.jpg	1113.jpg	11	18	1	i	1	0	789.24	0.68	0.54
BFE_352	0	2	02	2	12	4.902164e+01	2117.jpg	2111.jpg	60	62	1	i	6	0	703.65	0.48	0.47
BFE_352	0	2	02	2	13	5.302613e+01	2212.jpg	2109.jpg	58	51	0	i	2	1	715.13	0.56	0.67
BFE_352	0	2	02	2	14	5.601251e+01	2215.jpg	2101.jpg	43	78	1	u	4	1	864.80	0.84	0.13
BFE_352	0	2	02	2	15	6.001731e+01	1206.jpg	1218.jpg	9	10	1	u	1	1	1123.95	0.71	0.69
BFE_352	0	2	02	2	16	6.602410e+01	2218.jpg	2211.jpg	50	54	0	u	2	0	1133.17	0.67	0.63
BFE_352	0	2	02	2	17	7.301521e+01	1215.jpg	1218.jpg	8	10	1	i	1	0	654.07	0.71	0.69
BFE_352	0	2	02	2	18	7.601869e+01	1103.jpg	1102.jpg	15	14	0	i	1	1	1314.57	0.55	0.62
BFE_352	0	2	02	2	19	8.102422e+01	2109.jpg	2216.jpg	51	52	1	i	2	0	573.04	0.67	0.66
BFE_352	0	2	02	2	20	8.601284e+01	2202.jpg	2211.jpg	55	54	0	u	2	0	1280.42	0.60	0.63
BFE_352	0	2	02	2	21	9.201995e+01	2218.jpg	2208.jpg	50	57	0	u	2	0	1097.32	0.67	0.57
BFE_352	0	2	02	2	22	9.602442e+01	2217.jpg	2109.jpg	53	51	0	i	2	1	636.84	0.64	0.67
BFE_352	0	2	02	2	23	1.010131e+02	1121.jpg	1213.jpg	16	13	1	i	1	0	504.22	0.55	0.64
BFE_352	0	2	02	2	24	1.080213e+02	1106.jpg	1120.jpg	4	37	1	u	3	1	960.01	0.80	0.20
BFE_352	0	2	02	2	25	1.130269e+02	2212.jpg	2219.jpg	58	48	0	i	2	1	650.35	0.56	0.72
BFE_352	0	2	02	2	26	1.180158e+02	1114.jpg	1212.jpg	7	11	0	i	1	1	749.44	0.73	0.68
BFE_352	0	2	02	2	27	1.210192e+02	1206.jpg	1214.jpg	9	12	1	i	1	0	1322.05	0.71	0.65
BFE_352	0	2	02	2	28	1.240225e+02	2113.jpg	2202.jpg	56	55	1	u	2	1	1158.78	0.58	0.60
BFE_352	0	2	02	2	29	1.300123e+02	2208.jpg	2217.jpg	57	53	1	i	2	0	1104.98	0.57	0.64
BFE_352	0	2	02	2	30	1.340171e+02	2218.jpg	2113.jpg	50	56	0	i	2	1	708.21	0.67	0.58
BFE_352	0	2	02	2	31	1.430272e+02	2212.jpg	2113.jpg	58	56	0	i	2	1	962.02	0.56	0.58
BFE_352	0	2	02	2	32	1.480162e+02	1114.jpg	1215.jpg	7	8	0	i	1	1	677.09	0.73	0.71
BFE_352	0	2	02	2	33	1.570263e+02	2218.jpg	2109.jpg	50	51	0	i	2	1	898.97	0.67	0.67
BFE_352	0	2	02	2	34	1.600127e+02	1113.jpg	1102.jpg	18	14	0	i	1	1	656.57	0.54	0.62
BFE_352	0	2	02	2	35	1.640175e+02	1213.jpg	1109.jpg	13	17	0	i	1	1	763.73	0.64	0.55
BFE_352	0	2	02	2	36	1.700242e+02	2212.jpg	2213.jpg	58	49	0	i	2	1	1061.03	0.56	0.71
BFE_352	0	2	02	2	37	1.740120e+02	1109.jpg	1103.jpg	17	15	1	u	1	1	1201.32	0.55	0.55
BFE_352	0	2	02	2	38	1.810199e+02	1119.jpg	1117.jpg	21	19	1	u	5	1	961.36	0.51	0.52
BFE_352	0	2	02	2	39	1.870274e+02	1214.jpg	1215.jpg	12	8	0	i	1	1	537.82	0.65	0.71
BFE_352	0	2	02	2	40	1.980223e+02	2219.jpg	2202.jpg	48	55	1	u	2	1	1126.98	0.72	0.60
BFE_352	0	2	02	2	41	2.030279e+02	2209.jpg	2101.jpg	44	78	1	u	4	1	1129.33	0.84	0.13
BFE_352	0	2	02	2	42	2.090180e+02	1204.jpg	1117.jpg	20	19	1	u	5	1	1091.31	0.52	0.52
BFE_352	0	2	02	2	43	2.200136e+02	1218.jpg	1102.jpg	10	14	0	u	1	0	951.65	0.69	0.62
BFE_352	0	2	02	2	44	2.230171e+02	2211.jpg	2212.jpg	54	58	1	u	2	1	1052.20	0.63	0.56
