subjectID	scanner	order	block	run	trial	onsettime	ImageLeft	ImageRight	bidIndexLeft	bidIndexRight	IsleftGo	Response	PairType	Outcome	RT	bidLeft	bidRight
BFE_356	0	2	01	1	1	2.018567e+00	2118.jpg	2217.jpg	55	56	0	i	2	1	443.96	0.57	0.57
BFE_356	0	2	01	1	2	8.025407e+00	1218.jpg	1205.jpg	14	7	1	i	1	0	413.12	0.58	0.65
BFE_356	0	2	01	1	3	1.101213e+01	1104.jpg	1217.jpg	8	13	1	i	1	0	394.41	0.63	0.58
BFE_356	0	2	01	1	4	1.401545e+01	2202.jpg	2205.jpg	53	48	0	i	2	1	351.06	0.58	0.62
BFE_356	0	2	01	1	5	1.701878e+01	2204.jpg	2102.jpg	51	50	1	i	2	0	459.74	0.59	0.59
BFE_356	0	2	01	1	6	2.102332e+01	2218.jpg	2216.jpg	54	52	1	u	2	1	335.20	0.58	0.58
BFE_356	0	2	01	1	7	2.901554e+01	2119.jpg	2208.jpg	44	78	1	i	4	0	406.98	0.67	0.27
BFE_356	0	2	01	1	8	3.402122e+01	2120.jpg	2104.jpg	62	61	0	i	6	1	393.29	0.48	0.52
BFE_356	0	2	01	1	9	3.900984e+01	2216.jpg	2205.jpg	52	48	0	i	2	1	428.68	0.58	0.62
BFE_356	0	2	01	1	10	4.201344e+01	1215.jpg	1114.jpg	20	19	1	i	5	0	529.08	0.48	0.49
BFE_356	0	2	01	1	11	4.501685e+01	1112.jpg	1110.jpg	15	11	0	i	1	1	557.68	0.52	0.59
BFE_356	0	2	01	1	12	5.102356e+01	1111.jpg	1119.jpg	17	18	1	i	1	0	470.94	0.50	0.49
BFE_356	0	2	01	1	13	5.501111e+01	2115.jpg	2204.jpg	47	51	0	i	2	1	491.43	0.62	0.59
BFE_356	0	2	01	1	14	5.801478e+01	2206.jpg	2108.jpg	43	77	1	u	4	1	463.74	0.69	0.28
BFE_356	0	2	01	1	15	6.302042e+01	1207.jpg	1216.jpg	4	37	1	i	3	0	338.09	0.71	0.33
BFE_356	0	2	01	1	16	7.001153e+01	2115.jpg	2218.jpg	47	54	0	i	2	1	370.99	0.62	0.58
BFE_356	0	2	01	1	17	7.301490e+01	2202.jpg	2204.jpg	53	51	0	i	2	1	423.63	0.58	0.59
BFE_356	0	2	01	1	18	8.202508e+01	1105.jpg	1101.jpg	12	16	0	u	1	0	501.44	0.59	0.52
BFE_356	0	2	01	1	19	8.501169e+01	1214.jpg	1101.jpg	10	16	0	i	1	1	410.82	0.60	0.52
BFE_356	0	2	01	1	20	9.101840e+01	1216.jpg	1204.jpg	37	3	0	i	3	1	348.09	0.33	0.73
BFE_356	0	2	01	1	21	9.602402e+01	2217.jpg	2115.jpg	56	47	1	i	2	0	398.50	0.57	0.62
BFE_356	0	2	01	1	22	9.901077e+01	1206.jpg	1214.jpg	9	10	1	i	1	0	363.75	0.62	0.60
BFE_356	0	2	01	1	23	1.060186e+02	2113.jpg	2202.jpg	57	53	1	i	2	0	403.98	0.57	0.58
BFE_356	0	2	01	1	24	1.110242e+02	2205.jpg	2118.jpg	48	55	1	u	2	1	518.30	0.62	0.57
BFE_356	0	2	01	1	25	1.170143e+02	1110.jpg	1205.jpg	11	7	1	i	1	0	376.19	0.59	0.65
BFE_356	0	2	01	1	26	1.210188e+02	2115.jpg	2205.jpg	47	48	0	i	2	1	523.73	0.62	0.62
BFE_356	0	2	01	1	27	1.250232e+02	1110.jpg	1217.jpg	11	13	1	i	1	0	335.37	0.59	0.58
BFE_356	0	2	01	1	28	1.280096e+02	1111.jpg	1105.jpg	17	12	1	i	1	0	364.93	0.50	0.59
BFE_356	0	2	01	1	29	1.310133e+02	1119.jpg	1104.jpg	18	8	0	i	1	1	337.27	0.49	0.63
BFE_356	0	2	01	1	30	1.360189e+02	1112.jpg	1101.jpg	15	16	0	u	1	0	411.61	0.52	0.52
BFE_356	0	2	01	1	31	1.400234e+02	1206.jpg	1112.jpg	9	15	1	i	1	0	431.10	0.62	0.52
BFE_356	0	2	01	1	32	1.430099e+02	2102.jpg	2213.jpg	50	49	0	i	2	1	644.67	0.59	0.60
BFE_356	0	2	01	1	33	1.480157e+02	2202.jpg	2218.jpg	53	54	0	i	2	1	334.87	0.58	0.58
BFE_356	0	2	01	1	34	1.510190e+02	2213.jpg	2118.jpg	49	55	1	i	2	0	347.53	0.60	0.57
BFE_356	0	2	01	1	35	1.550235e+02	1111.jpg	1214.jpg	17	10	1	i	1	0	415.06	0.50	0.60
BFE_356	0	2	01	1	36	1.680214e+02	2118.jpg	2204.jpg	55	51	0	i	2	1	401.16	0.57	0.59
BFE_356	0	2	01	1	37	1.740116e+02	1210.jpg	1120.jpg	22	21	0	i	5	1	490.96	0.46	0.47
BFE_356	0	2	01	1	38	1.790171e+02	2110.jpg	2205.jpg	58	48	0	i	2	1	501.38	0.54	0.62
BFE_356	0	2	01	1	39	1.850238e+02	1119.jpg	1101.jpg	18	16	0	i	1	1	358.67	0.49	0.52
BFE_356	0	2	01	1	40	1.880105e+02	2203.jpg	2116.jpg	60	59	1	u	6	1	451.97	0.52	0.54
BFE_356	0	2	01	1	41	1.920150e+02	1111.jpg	1205.jpg	17	7	1	i	1	0	487.54	0.50	0.65
BFE_356	0	2	01	1	42	1.970206e+02	1217.jpg	1206.jpg	13	9	0	i	1	1	545.96	0.58	0.62
BFE_356	0	2	01	1	43	2.030104e+02	2118.jpg	2113.jpg	55	57	0	u	2	0	476.16	0.57	0.57
BFE_356	0	2	01	1	44	2.070151e+02	1218.jpg	1217.jpg	14	13	1	i	1	0	535.41	0.58	0.58
