subjectID	scanner	order	block	run	trial	onsettime	ImageLeft	ImageRight	bidIndexLeft	bidIndexRight	IsleftGo	Response	PairType	Outcome	RT	bidLeft	bidRight
BFE_336	0	2	02	2	1	2.018919e+00	2107.jpg	2212.jpg	60	59	1	i	6	0	1189.13	0.49	0.50
BFE_336	0	2	02	2	2	8.025652e+00	1109.jpg	1215.jpg	17	7	1	i	1	0	1102.40	0.51	0.68
BFE_336	0	2	02	2	3	1.102905e+01	2202.jpg	2111.jpg	77	44	0	u	4	0	1059.02	0.32	0.78
BFE_336	0	2	02	2	4	1.403243e+01	1215.jpg	1113.jpg	7	8	0	i	1	1	1407.64	0.68	0.68
BFE_336	0	2	02	2	5	1.701907e+01	1109.jpg	1103.jpg	17	12	1	i	1	0	781.02	0.51	0.57
BFE_336	0	2	02	2	6	2.102356e+01	1101.jpg	1208.jpg	14	15	1	u	1	1	1040.50	0.54	0.54
BFE_336	0	2	02	2	7	2.903250e+01	1201.jpg	1203.jpg	10	16	0	u	1	0	1255.59	0.63	0.51
BFE_336	0	2	02	2	8	3.402148e+01	2118.jpg	2219.jpg	47	54	0	u	2	0	1354.60	0.76	0.61
BFE_336	0	2	02	2	9	3.902710e+01	1208.jpg	1203.jpg	15	16	0	i	1	1	1108.97	0.54	0.51
BFE_336	0	2	02	2	10	4.203040e+01	1112.jpg	1109.jpg	13	17	0	i	1	1	1209.69	0.54	0.51
BFE_336	0	2	02	2	11	4.501678e+01	2206.jpg	2106.jpg	48	55	1	u	2	1	1063.28	0.75	0.60
BFE_336	0	2	02	2	12	5.102379e+01	2113.jpg	2108.jpg	61	62	1	u	6	1	1440.26	0.48	0.47
BFE_336	0	2	02	2	13	5.502829e+01	1109.jpg	1110.jpg	17	18	1	i	1	0	891.75	0.51	0.50
BFE_336	0	2	02	2	14	5.803175e+01	2118.jpg	2203.jpg	47	56	0	u	2	0	920.31	0.76	0.56
BFE_336	0	2	02	2	15	6.302059e+01	2116.jpg	2207.jpg	52	57	0	x	2	999	999000.00	0.66	0.53
BFE_336	0	2	02	2	16	7.002847e+01	2116.jpg	2218.jpg	52	51	0	i	2	1	1243.59	0.66	0.66
BFE_336	0	2	02	2	17	7.303181e+01	1113.jpg	1110.jpg	8	18	1	i	1	0	1000.24	0.68	0.50
BFE_336	0	2	02	2	18	8.202523e+01	2218.jpg	2118.jpg	51	47	1	u	2	1	1086.82	0.66	0.76
BFE_336	0	2	02	2	19	8.502865e+01	2118.jpg	2207.jpg	47	57	0	i	2	1	1419.42	0.76	0.53
BFE_336	0	2	02	2	20	9.101869e+01	1215.jpg	1101.jpg	7	14	0	i	1	1	925.39	0.68	0.54
BFE_336	0	2	02	2	21	9.602437e+01	2208.jpg	2203.jpg	50	56	0	u	2	0	1127.69	0.67	0.56
BFE_336	0	2	02	2	22	9.902759e+01	1103.jpg	1113.jpg	12	8	0	u	1	0	796.46	0.57	0.68
BFE_336	0	2	02	2	23	1.060188e+02	1216.jpg	1210.jpg	3	37	1	u	3	1	773.24	0.75	0.34
BFE_336	0	2	02	2	24	1.110244e+02	2218.jpg	2101.jpg	51	53	1	i	2	0	1463.65	0.66	0.63
BFE_336	0	2	02	2	25	1.170312e+02	1116.jpg	1205.jpg	22	20	0	u	5	0	1296.87	0.44	0.48
BFE_336	0	2	02	2	26	1.210189e+02	2116.jpg	2203.jpg	52	56	0	i	2	1	1013.10	0.66	0.56
BFE_336	0	2	02	2	27	1.250234e+02	1201.jpg	1113.jpg	10	8	0	u	1	0	768.62	0.63	0.68
BFE_336	0	2	02	2	28	1.280269e+02	2207.jpg	2106.jpg	57	55	1	u	2	1	1397.21	0.53	0.60
BFE_336	0	2	02	2	29	1.310302e+02	2219.jpg	2106.jpg	54	55	1	i	2	0	1265.90	0.61	0.60
BFE_336	0	2	02	2	30	1.360190e+02	2201.jpg	2213.jpg	49	58	1	u	2	1	885.02	0.75	0.52
BFE_336	0	2	02	2	31	1.400236e+02	1103.jpg	1214.jpg	12	11	0	u	1	0	960.44	0.57	0.60
BFE_336	0	2	02	2	32	1.430269e+02	2106.jpg	2203.jpg	55	56	0	i	2	1	829.12	0.60	0.56
BFE_336	0	2	02	2	33	1.480155e+02	1102.jpg	1110.jpg	9	18	1	i	1	0	1016.53	0.65	0.50
BFE_336	0	2	02	2	34	1.510192e+02	2202.jpg	2103.jpg	77	43	0	i	4	1	1012.86	0.32	0.79
BFE_336	0	2	02	2	35	1.550237e+02	1102.jpg	1215.jpg	9	7	1	u	1	1	1304.37	0.65	0.68
BFE_336	0	2	02	2	36	1.680217e+02	2219.jpg	2116.jpg	54	52	1	i	2	0	874.37	0.61	0.66
BFE_336	0	2	02	2	37	1.740284e+02	1101.jpg	1112.jpg	14	13	1	u	1	1	755.73	0.54	0.54
BFE_336	0	2	02	2	38	1.790174e+02	1102.jpg	1103.jpg	9	12	1	i	1	0	926.64	0.65	0.57
BFE_336	0	2	02	2	39	1.850240e+02	1213.jpg	1116.jpg	21	22	1	u	5	1	648.11	0.47	0.44
BFE_336	0	2	02	2	40	1.880274e+02	1113.jpg	1112.jpg	8	13	1	u	1	1	1356.67	0.68	0.54
BFE_336	0	2	02	2	41	1.920319e+02	2101.jpg	2219.jpg	53	54	0	u	2	0	1456.18	0.63	0.61
BFE_336	0	2	02	2	42	1.970208e+02	2213.jpg	2207.jpg	58	57	0	i	2	1	19.25	0.52	0.53
BFE_336	0	2	02	2	43	2.030275e+02	2208.jpg	2207.jpg	50	57	0	i	2	1	1180.59	0.67	0.53
BFE_336	0	2	02	2	44	2.070320e+02	1218.jpg	1204.jpg	4	38	1	u	3	1	1208.01	0.73	0.33
