subjectID	scanner	order	block	run	trial	onsettime	ImageLeft	ImageRight	bidIndexLeft	bidIndexRight	IsleftGo	Response	PairType	Outcome	RT	bidLeft	bidRight
BFE_102	0	2	02	1	1	2.018921e+00	1115.jpg	1110.jpg	22	20	0	i	5	1	1010.11	0.48	0.52
BFE_102	0	2	02	1	2	7.024519e+00	2209.jpg	2110.jpg	56	53	1	u	2	1	1244.52	0.68	0.73
BFE_102	0	2	02	1	3	1.501681e+01	1207.jpg	1106.jpg	8	18	1	u	1	1	1132.21	0.70	0.53
BFE_102	0	2	02	1	4	1.802009e+01	2207.jpg	2114.jpg	48	47	1	u	2	1	864.95	0.80	0.85
BFE_102	0	2	02	1	5	2.502797e+01	1207.jpg	1108.jpg	8	10	1	i	1	0	1209.07	0.70	0.68
BFE_102	0	2	02	1	6	2.801469e+01	2204.jpg	2207.jpg	50	48	0	i	2	1	1022.33	0.75	0.80
BFE_102	0	2	02	1	7	3.902702e+01	2114.jpg	2201.jpg	47	57	0	i	2	1	1234.00	0.85	0.66
BFE_102	0	2	02	1	8	4.301478e+01	1211.jpg	1106.jpg	9	18	1	x	1	999	999000.00	0.70	0.53
BFE_102	0	2	02	1	9	4.701932e+01	2201.jpg	2110.jpg	57	53	1	u	2	1	1273.72	0.66	0.73
BFE_102	0	2	02	1	10	5.002258e+01	1116.jpg	1203.jpg	37	3	0	i	3	1	966.44	0.20	0.87
BFE_102	0	2	02	1	11	5.302594e+01	2104.jpg	2209.jpg	58	56	0	i	2	1	819.09	0.63	0.68
BFE_102	0	2	02	1	12	5.801493e+01	2213.jpg	2214.jpg	62	60	0	u	6	0	1374.10	0.52	0.57
BFE_102	0	2	02	1	13	6.201944e+01	2110.jpg	2207.jpg	53	48	0	i	2	1	1001.58	0.73	0.80
BFE_102	0	2	02	1	14	7.101288e+01	1207.jpg	1205.jpg	8	7	1	i	1	0	1384.16	0.70	0.71
BFE_102	0	2	02	1	15	7.401613e+01	1205.jpg	1121.jpg	7	17	0	u	1	0	1284.90	0.71	0.55
BFE_102	0	2	02	1	16	7.902175e+01	2118.jpg	2101.jpg	78	44	0	i	4	1	951.28	0.32	0.87
BFE_102	0	2	02	1	17	8.501162e+01	1204.jpg	1106.jpg	11	18	1	u	1	1	1193.41	0.65	0.53
BFE_102	0	2	02	1	18	8.801518e+01	1121.jpg	1208.jpg	17	12	1	x	1	999	999000.00	0.55	0.62
BFE_102	0	2	02	1	19	9.302086e+01	1208.jpg	1211.jpg	12	9	0	i	1	1	1208.16	0.62	0.70
BFE_102	0	2	02	1	20	9.702523e+01	2103.jpg	2211.jpg	52	51	0	x	2	999	999000.00	0.75	0.75
BFE_102	0	2	02	1	21	1.020142e+02	1205.jpg	1102.jpg	7	14	0	u	1	0	1294.82	0.71	0.60
BFE_102	0	2	02	1	22	1.070198e+02	2209.jpg	2114.jpg	56	47	1	u	2	1	1169.20	0.68	0.85
BFE_102	0	2	02	1	23	1.100232e+02	2118.jpg	2206.jpg	78	43	0	i	4	1	917.86	0.32	0.87
BFE_102	0	2	02	1	24	1.130265e+02	2201.jpg	2204.jpg	57	50	1	x	2	999	999000.00	0.66	0.75
BFE_102	0	2	02	1	25	1.250233e+02	1121.jpg	1201.jpg	17	13	1	i	1	0	1213.68	0.55	0.60
BFE_102	0	2	02	1	26	1.290278e+02	2211.jpg	2204.jpg	51	50	1	u	2	1	1329.19	0.75	0.75
BFE_102	0	2	02	1	27	1.320144e+02	1201.jpg	1204.jpg	13	11	0	u	1	0	1430.60	0.60	0.65
BFE_102	0	2	02	1	28	1.390223e+02	1205.jpg	1204.jpg	7	11	0	x	1	999	999000.00	0.71	0.65
BFE_102	0	2	02	1	29	1.420257e+02	1201.jpg	1209.jpg	13	16	0	i	1	1	819.37	0.60	0.55
BFE_102	0	2	02	1	30	1.490169e+02	1109.jpg	1115.jpg	21	22	1	i	5	0	1292.16	0.50	0.48
BFE_102	0	2	02	1	31	1.540225e+02	1211.jpg	1205.jpg	9	7	1	i	1	0	1454.56	0.70	0.71
BFE_102	0	2	02	1	32	1.580270e+02	2201.jpg	2103.jpg	57	52	1	x	2	999	999000.00	0.66	0.75
BFE_102	0	2	02	1	33	1.630158e+02	1207.jpg	1104.jpg	8	15	1	x	1	999	999000.00	0.70	0.56
BFE_102	0	2	02	1	34	1.690226e+02	1104.jpg	1102.jpg	15	14	0	x	1	999	999000.00	0.56	0.60
BFE_102	0	2	02	1	35	1.730270e+02	1121.jpg	1106.jpg	17	18	1	u	1	1	1121.97	0.55	0.53
BFE_102	0	2	02	1	36	1.760138e+02	1203.jpg	1212.jpg	3	38	1	u	3	1	1159.25	0.87	0.20
BFE_102	0	2	02	1	37	1.790172e+02	1104.jpg	1209.jpg	15	16	0	i	1	1	1131.85	0.56	0.55
BFE_102	0	2	02	1	38	1.820205e+02	2211.jpg	2110.jpg	51	53	1	u	2	1	1328.57	0.75	0.73
BFE_102	0	2	02	1	39	1.860249e+02	2218.jpg	2217.jpg	55	49	0	x	2	999	999000.00	0.72	0.76
BFE_102	0	2	02	1	40	1.900125e+02	2201.jpg	2104.jpg	57	58	1	u	2	1	1176.55	0.66	0.63
BFE_102	0	2	02	1	41	1.960195e+02	2203.jpg	2104.jpg	54	58	1	u	2	1	1457.52	0.72	0.63
BFE_102	0	2	02	1	42	2.050126e+02	2218.jpg	2211.jpg	55	51	0	i	2	1	1440.46	0.72	0.75
BFE_102	0	2	02	1	43	2.080162e+02	2103.jpg	2203.jpg	52	54	0	i	2	1	948.81	0.75	0.72
BFE_102	0	2	02	1	44	2.120207e+02	2111.jpg	2115.jpg	59	61	0	x	6	999	999000.00	0.62	0.53
