subjectID	scanner	order	block	run	trial	onsettime	ImageLeft	ImageRight	bidIndexLeft	bidIndexRight	IsleftGo	Response	PairType	Outcome	RT	bidLeft	bidRight
BFE_203	0	1	01	1	1	2.018695e+00	1109.jpg	1204.jpg	12	9	1	u	1	1	994.62	0.67	0.72
BFE_203	0	1	01	1	2	7.007673e+00	1110.jpg	1217.jpg	19	20	1	u	5	1	893.66	0.54	0.53
BFE_203	0	1	01	1	3	1.501653e+01	1206.jpg	1117.jpg	7	14	1	u	1	1	900.80	0.74	0.64
BFE_203	0	1	01	1	4	1.801998e+01	1114.jpg	1206.jpg	8	7	0	i	1	1	921.38	0.73	0.74
BFE_203	0	1	01	1	5	2.501120e+01	2201.jpg	2104.jpg	57	58	0	u	2	0	1082.13	0.54	0.54
BFE_203	0	1	01	1	6	2.801444e+01	1115.jpg	1117.jpg	10	14	1	i	1	0	1150.91	0.71	0.64
BFE_203	0	1	01	1	7	3.901019e+01	2104.jpg	2205.jpg	58	48	1	i	2	0	1235.14	0.54	0.70
BFE_203	0	1	01	1	8	4.301460e+01	2107.jpg	2103.jpg	55	54	1	i	2	0	966.73	0.57	0.59
BFE_203	0	1	01	1	9	4.701911e+01	2205.jpg	2115.jpg	48	53	0	x	2	999	999000.00	0.70	0.62
BFE_203	0	1	01	1	10	5.000586e+01	1108.jpg	1205.jpg	37	3	0	i	3	1	1207.46	0.21	0.80
BFE_203	0	1	01	1	11	5.300918e+01	2102.jpg	2104.jpg	49	58	0	u	2	0	868.15	0.68	0.54
BFE_203	0	1	01	1	12	5.801474e+01	2116.jpg	2219.jpg	52	56	1	i	2	0	1046.66	0.67	0.56
BFE_203	0	1	01	1	13	6.201933e+01	2216.jpg	2109.jpg	51	47	0	u	2	0	682.00	0.67	0.74
BFE_203	0	1	01	1	14	7.101271e+01	2109.jpg	2205.jpg	47	48	1	u	2	1	696.61	0.74	0.70
BFE_203	0	1	01	1	15	7.401609e+01	1111.jpg	1209.jpg	18	16	1	i	1	0	789.23	0.57	0.58
BFE_203	0	1	01	1	16	7.900472e+01	2103.jpg	2104.jpg	54	58	0	u	2	0	584.62	0.59	0.54
BFE_203	0	1	01	1	17	8.501167e+01	2107.jpg	2201.jpg	55	57	1	i	2	0	985.65	0.57	0.54
BFE_203	0	1	01	1	18	8.801534e+01	1209.jpg	1201.jpg	16	15	0	i	1	1	821.97	0.58	0.60
BFE_203	0	1	01	1	19	9.302066e+01	1206.jpg	1104.jpg	7	11	1	u	1	1	896.68	0.74	0.69
BFE_203	0	1	01	1	20	9.700849e+01	2109.jpg	2201.jpg	47	57	1	u	2	1	756.83	0.74	0.54
BFE_203	0	1	01	1	21	1.020142e+02	1108.jpg	1107.jpg	37	4	0	i	3	1	599.19	0.21	0.80
BFE_203	0	1	01	1	22	1.070198e+02	1104.jpg	1201.jpg	11	15	0	i	1	1	873.57	0.69	0.60
BFE_203	0	1	01	1	23	1.100063e+02	2113.jpg	2216.jpg	50	51	1	u	2	1	1159.03	0.67	0.67
BFE_203	0	1	01	1	24	1.130098e+02	2103.jpg	2109.jpg	54	47	0	i	2	1	739.51	0.59	0.74
BFE_203	0	1	01	1	25	1.250066e+02	2219.jpg	2107.jpg	56	55	0	u	2	0	1342.75	0.56	0.57
BFE_203	0	1	01	1	26	1.290110e+02	1206.jpg	1204.jpg	7	9	1	u	1	1	778.32	0.74	0.72
BFE_203	0	1	01	1	27	1.320144e+02	1214.jpg	1217.jpg	22	20	1	i	5	0	862.98	0.49	0.53
BFE_203	0	1	01	1	28	1.390056e+02	1104.jpg	1113.jpg	11	13	0	u	1	0	647.78	0.69	0.66
BFE_203	0	1	01	1	29	1.420090e+02	2204.jpg	2217.jpg	60	59	0	i	6	1	780.34	0.50	0.51
BFE_203	0	1	01	1	30	1.490168e+02	2211.jpg	2202.jpg	62	61	1	u	6	1	868.56	0.47	0.49
BFE_203	0	1	01	1	31	1.540058e+02	1117.jpg	1111.jpg	14	18	0	u	1	0	807.54	0.64	0.57
BFE_203	0	1	01	1	32	1.580101e+02	2106.jpg	2203.jpg	43	78	1	u	4	1	763.19	0.88	0.13
BFE_203	0	1	01	1	33	1.630158e+02	1115.jpg	1104.jpg	10	11	1	i	1	0	629.54	0.71	0.69
BFE_203	0	1	01	1	34	1.690058e+02	1114.jpg	1113.jpg	8	13	0	u	1	0	791.54	0.73	0.66
BFE_203	0	1	01	1	35	1.730103e+02	2115.jpg	2201.jpg	53	57	1	i	2	0	963.01	0.62	0.54
BFE_203	0	1	01	1	36	1.760137e+02	2216.jpg	2107.jpg	51	55	0	u	2	0	927.66	0.67	0.57
BFE_203	0	1	01	1	37	1.790171e+02	1117.jpg	1201.jpg	14	15	0	i	1	1	596.27	0.64	0.60
BFE_203	0	1	01	1	38	1.820035e+02	1115.jpg	1209.jpg	10	16	1	i	1	0	1217.91	0.71	0.58
BFE_203	0	1	01	1	39	1.860083e+02	1109.jpg	1105.jpg	12	17	1	u	1	1	797.07	0.67	0.57
BFE_203	0	1	01	1	40	1.900127e+02	2116.jpg	2216.jpg	52	51	1	i	2	0	808.68	0.67	0.67
BFE_203	0	1	01	1	41	1.960194e+02	2103.jpg	2116.jpg	54	52	0	u	2	0	657.94	0.59	0.67
BFE_203	0	1	01	1	42	2.050128e+02	2203.jpg	2121.jpg	78	44	0	i	4	1	680.50	0.13	0.85
BFE_203	0	1	01	1	43	2.080163e+02	1204.jpg	1113.jpg	9	13	0	u	1	0	813.06	0.72	0.66
BFE_203	0	1	01	1	44	2.120037e+02	1105.jpg	1111.jpg	17	18	0	u	1	0	873.62	0.57	0.57
