subjectID	scanner	order	block	run	trial	onsettime	ImageLeft	ImageRight	bidIndexLeft	bidIndexRight	IsleftGo	Response	PairType	Outcome	RT	bidLeft	bidRight
BFE_202	0	2	02	2	1	2.018767e+00	1106.jpg	1219.jpg	13	9	0	i	1	1	704.00	0.62	0.66
BFE_202	0	2	02	2	2	5.022107e+00	2216.jpg	2113.jpg	53	56	0	u	2	0	828.64	0.62	0.60
BFE_202	0	2	02	2	3	9.026650e+00	1205.jpg	1104.jpg	14	12	1	i	1	0	432.11	0.62	0.63
BFE_202	0	2	02	2	4	1.501669e+01	1210.jpg	1107.jpg	18	16	0	i	1	1	618.06	0.57	0.60
BFE_202	0	2	02	2	5	2.102336e+01	2113.jpg	2102.jpg	56	52	1	i	2	0	843.39	0.60	0.62
BFE_202	0	2	02	2	6	2.602900e+01	2210.jpg	2101.jpg	57	55	1	i	2	0	941.76	0.59	0.61
BFE_202	0	2	02	2	7	3.001687e+01	2211.jpg	2119.jpg	43	77	1	u	4	1	929.86	0.82	0.24
BFE_202	0	2	02	2	8	3.502245e+01	2209.jpg	2203.jpg	51	47	1	u	2	1	1164.32	0.62	0.69
BFE_202	0	2	02	2	9	4.102913e+01	1107.jpg	1209.jpg	16	7	1	i	1	0	669.65	0.60	0.68
BFE_202	0	2	02	2	10	4.401588e+01	1111.jpg	1214.jpg	19	20	0	u	5	0	634.89	0.56	0.56
BFE_202	0	2	02	2	11	4.701923e+01	1106.jpg	1107.jpg	13	16	0	u	1	0	671.52	0.62	0.60
BFE_202	0	2	02	2	12	5.102368e+01	2117.jpg	2219.jpg	61	59	1	i	6	0	603.09	0.47	0.51
BFE_202	0	2	02	2	13	5.602927e+01	2115.jpg	2209.jpg	50	51	0	i	2	1	645.48	0.64	0.62
BFE_202	0	2	02	2	14	5.901598e+01	2118.jpg	2203.jpg	54	47	1	i	2	0	722.77	0.61	0.69
BFE_202	0	2	02	2	15	6.201936e+01	1210.jpg	1204.jpg	18	11	0	i	1	1	775.40	0.57	0.65
BFE_202	0	2	02	2	16	6.602379e+01	2216.jpg	2209.jpg	53	51	0	i	2	1	747.00	0.62	0.62
BFE_202	0	2	02	2	17	8.002291e+01	1115.jpg	1203.jpg	8	10	1	u	1	1	979.86	0.67	0.66
BFE_202	0	2	02	2	18	8.801511e+01	2209.jpg	2101.jpg	51	55	1	i	2	0	963.67	0.62	0.61
BFE_202	0	2	02	2	19	9.402188e+01	1213.jpg	1219.jpg	15	9	0	u	1	0	1292.87	0.60	0.66
BFE_202	0	2	02	2	20	9.702522e+01	1115.jpg	1104.jpg	8	12	1	i	1	0	785.53	0.67	0.63
BFE_202	0	2	02	2	21	1.010297e+02	1115.jpg	1106.jpg	8	13	1	i	1	0	1077.07	0.67	0.62
BFE_202	0	2	02	2	22	1.070198e+02	1210.jpg	1219.jpg	18	9	0	i	1	1	926.96	0.57	0.66
BFE_202	0	2	02	2	23	1.100232e+02	2216.jpg	2218.jpg	53	49	0	u	2	0	1083.59	0.62	0.64
BFE_202	0	2	02	2	24	1.130266e+02	1209.jpg	1219.jpg	7	9	0	i	1	1	1144.18	0.68	0.66
BFE_202	0	2	02	2	25	1.160299e+02	2103.jpg	2219.jpg	60	59	1	u	6	1	860.87	0.51	0.51
BFE_202	0	2	02	2	26	1.230210e+02	1115.jpg	1209.jpg	8	7	1	u	1	1	861.77	0.67	0.68
BFE_202	0	2	02	2	27	1.260244e+02	2218.jpg	2203.jpg	49	47	1	u	2	1	1306.30	0.64	0.69
BFE_202	0	2	02	2	28	1.290278e+02	1120.jpg	1206.jpg	22	21	0	i	5	1	806.98	0.52	0.54
BFE_202	0	2	02	2	29	1.340167e+02	2216.jpg	2118.jpg	53	54	0	u	2	0	746.06	0.62	0.61
BFE_202	0	2	02	2	30	1.370200e+02	2213.jpg	2118.jpg	58	54	0	u	2	0	1014.72	0.54	0.61
BFE_202	0	2	02	2	31	1.410245e+02	1209.jpg	1204.jpg	7	11	0	i	1	1	98.22	0.68	0.65
BFE_202	0	2	02	2	32	1.470143e+02	2203.jpg	2210.jpg	47	57	0	u	2	0	1004.54	0.69	0.59
BFE_202	0	2	02	2	33	1.500180e+02	1107.jpg	1213.jpg	16	15	1	u	1	1	744.78	0.60	0.60
BFE_202	0	2	02	2	34	1.570258e+02	1207.jpg	1209.jpg	17	7	1	u	1	1	593.02	0.58	0.68
BFE_202	0	2	02	2	35	1.620144e+02	2213.jpg	2218.jpg	58	49	0	u	2	0	924.38	0.54	0.64
BFE_202	0	2	02	2	36	1.660192e+02	2101.jpg	2205.jpg	55	48	0	u	2	0	567.51	0.61	0.68
BFE_202	0	2	02	2	37	1.690227e+02	1213.jpg	1207.jpg	15	17	0	i	1	1	572.06	0.60	0.58
BFE_202	0	2	02	2	38	1.720260e+02	2107.jpg	2215.jpg	78	44	0	i	4	1	784.74	0.24	0.82
BFE_202	0	2	02	2	39	1.820206e+02	1215.jpg	1117.jpg	4	37	1	i	3	0	838.15	0.74	0.23
BFE_202	0	2	02	2	40	1.930161e+02	1204.jpg	1213.jpg	11	15	1	u	1	1	610.65	0.65	0.60
BFE_202	0	2	02	2	41	1.980218e+02	1216.jpg	1119.jpg	3	38	1	u	3	1	580.99	0.77	0.17
BFE_202	0	2	02	2	42	2.070152e+02	2115.jpg	2210.jpg	50	57	0	u	2	0	867.54	0.64	0.59
BFE_202	0	2	02	2	43	2.100186e+02	2205.jpg	2102.jpg	48	52	1	u	2	1	952.23	0.68	0.62
BFE_202	0	2	02	2	44	2.150241e+02	2113.jpg	2115.jpg	56	50	1	u	2	1	642.65	0.60	0.64
