subjectID	scanner	order	block	run	trial	onsettime	ImageLeft	ImageRight	bidIndexLeft	bidIndexRight	IsleftGo	Response	PairType	Outcome	RT	bidLeft	bidRight
BFE_110	0	2	01	1	1	2.018703e+00	2109.jpg	2207.jpg	54	53	1	i	2	0	1311.95	0.63	0.64
BFE_110	0	2	01	1	2	5.022002e+00	1105.jpg	1109.jpg	21	19	1	i	5	0	1180.65	0.48	0.51
BFE_110	0	2	01	1	3	1.202993e+01	1120.jpg	1117.jpg	13	14	0	i	1	1	1204.72	0.60	0.59
BFE_110	0	2	01	1	4	1.601770e+01	2213.jpg	2119.jpg	43	78	1	u	4	1	1136.95	0.84	0.22
BFE_110	0	2	01	1	5	2.102332e+01	2104.jpg	2202.jpg	61	59	1	i	6	0	1123.36	0.59	0.60
BFE_110	0	2	01	1	6	2.502778e+01	2121.jpg	2120.jpg	52	51	0	i	2	1	1142.88	0.65	0.69
BFE_110	0	2	01	1	7	2.901560e+01	1102.jpg	1205.jpg	37	4	0	i	3	1	939.05	0.16	0.78
BFE_110	0	2	01	1	8	3.201900e+01	1216.jpg	1214.jpg	8	12	1	u	1	1	879.66	0.74	0.61
BFE_110	0	2	01	1	9	3.502234e+01	1121.jpg	1214.jpg	16	12	1	i	1	0	820.31	0.58	0.61
BFE_110	0	2	01	1	10	4.002802e+01	2202.jpg	2217.jpg	59	60	0	i	6	1	870.63	0.60	0.59
BFE_110	0	2	01	1	11	4.401581e+01	2204.jpg	2121.jpg	48	52	1	x	2	999	999000.00	0.76	0.65
BFE_110	0	2	01	1	12	4.902135e+01	2109.jpg	2121.jpg	54	52	1	i	2	0	717.30	0.63	0.65
BFE_110	0	2	01	1	13	5.302578e+01	1218.jpg	1106.jpg	9	18	1	u	1	1	1152.87	0.73	0.54
BFE_110	0	2	01	1	14	5.602926e+01	2121.jpg	2211.jpg	52	49	0	i	2	1	1069.40	0.65	0.71
BFE_110	0	2	01	1	15	6.001712e+01	2214.jpg	2204.jpg	58	48	0	u	2	0	1329.54	0.61	0.76
BFE_110	0	2	01	1	16	6.602371e+01	2214.jpg	2115.jpg	58	56	0	u	2	0	874.95	0.61	0.63
BFE_110	0	2	01	1	17	7.301470e+01	2214.jpg	2120.jpg	58	51	0	i	2	1	851.95	0.61	0.69
BFE_110	0	2	01	1	18	7.601830e+01	1120.jpg	1218.jpg	13	9	0	i	1	1	904.36	0.60	0.73
BFE_110	0	2	01	1	19	8.102386e+01	2219.jpg	2109.jpg	50	54	0	u	2	0	994.80	0.70	0.63
BFE_110	0	2	01	1	20	8.602949e+01	2115.jpg	2121.jpg	56	52	1	i	2	0	1197.16	0.63	0.65
BFE_110	0	2	01	1	21	9.201965e+01	1204.jpg	1120.jpg	17	13	1	i	1	0	783.00	0.54	0.60
BFE_110	0	2	01	1	22	9.602407e+01	1218.jpg	1214.jpg	9	12	1	i	1	0	922.59	0.73	0.61
BFE_110	0	2	01	1	23	1.010297e+02	2206.jpg	2211.jpg	47	49	0	i	2	1	1372.94	0.78	0.71
BFE_110	0	2	01	1	24	1.080209e+02	1117.jpg	1106.jpg	14	18	1	u	1	1	1021.81	0.59	0.54
BFE_110	0	2	01	1	25	1.130265e+02	2210.jpg	2218.jpg	77	44	0	i	4	1	816.17	0.25	0.81
BFE_110	0	2	01	1	26	1.180150e+02	1219.jpg	1204.jpg	15	17	0	i	1	1	1243.61	0.59	0.54
BFE_110	0	2	01	1	27	1.210187e+02	1117.jpg	1209.jpg	14	7	1	i	1	0	967.99	0.59	0.76
BFE_110	0	2	01	1	28	1.240221e+02	2206.jpg	2115.jpg	47	56	0	i	2	1	876.50	0.78	0.63
BFE_110	0	2	01	1	29	1.300289e+02	1102.jpg	1206.jpg	37	3	0	i	3	1	765.74	0.16	0.83
BFE_110	0	2	01	1	30	1.340166e+02	1120.jpg	1114.jpg	13	11	0	i	1	1	818.04	0.60	0.67
BFE_110	0	2	01	1	31	1.430268e+02	1204.jpg	1106.jpg	17	18	1	u	1	1	1159.87	0.54	0.54
BFE_110	0	2	01	1	32	1.480155e+02	2219.jpg	2211.jpg	50	49	0	u	2	0	1163.18	0.70	0.71
BFE_110	0	2	01	1	33	1.570258e+02	1114.jpg	1214.jpg	11	12	1	i	1	0	856.84	0.67	0.61
BFE_110	0	2	01	1	34	1.600291e+02	1214.jpg	1117.jpg	12	14	0	i	1	1	1325.55	0.61	0.59
BFE_110	0	2	01	1	35	1.640169e+02	2120.jpg	2208.jpg	51	55	1	u	2	1	1265.72	0.69	0.63
BFE_110	0	2	01	1	36	1.700236e+02	1211.jpg	1117.jpg	10	14	0	i	1	1	1307.03	0.70	0.59
BFE_110	0	2	01	1	37	1.740282e+02	1117.jpg	1219.jpg	14	15	1	i	1	0	1286.47	0.59	0.59
BFE_110	0	2	01	1	38	1.810193e+02	1115.jpg	1109.jpg	20	19	1	x	5	999	999000.00	0.50	0.51
BFE_110	0	2	01	1	39	1.870261e+02	1114.jpg	1211.jpg	11	10	1	i	1	0	928.57	0.67	0.70
BFE_110	0	2	01	1	40	1.980217e+02	2205.jpg	2214.jpg	57	58	1	i	2	0	940.93	0.62	0.61
BFE_110	0	2	01	1	41	2.030274e+02	2206.jpg	2109.jpg	47	54	0	x	2	999	999000.00	0.78	0.63
BFE_110	0	2	01	1	42	2.090174e+02	1120.jpg	1121.jpg	13	16	0	i	1	1	849.28	0.60	0.58
BFE_110	0	2	01	1	43	2.200298e+02	2219.jpg	2120.jpg	50	51	0	i	2	1	1012.87	0.70	0.69
BFE_110	0	2	01	1	44	2.230165e+02	2204.jpg	2219.jpg	48	50	1	i	2	0	1050.13	0.76	0.70
