subjectID	scanner	order	block	run	trial	onsettime	ImageLeft	ImageRight	bidIndexLeft	bidIndexRight	IsleftGo	Response	PairType	Outcome	RT	bidLeft	bidRight
BFE_203	0	1	02	2	1	2.016794e+00	2103.jpg	2116.jpg	54	52	0	u	2	0	631.53	0.59	0.67
BFE_203	0	1	02	2	2	7.022607e+00	1209.jpg	1115.jpg	16	10	0	i	1	1	689.70	0.58	0.71
BFE_203	0	1	02	2	3	1.503159e+01	2203.jpg	2106.jpg	78	43	0	i	4	1	904.74	0.13	0.88
BFE_203	0	1	02	2	4	1.801837e+01	2201.jpg	2116.jpg	57	52	0	u	2	0	725.94	0.54	0.67
BFE_203	0	1	02	2	5	2.502619e+01	1201.jpg	1114.jpg	15	8	1	u	1	1	878.11	0.60	0.73
BFE_203	0	1	02	2	6	2.802953e+01	1113.jpg	1117.jpg	13	14	1	u	1	1	746.77	0.66	0.64
BFE_203	0	1	02	2	7	3.902520e+01	2104.jpg	2102.jpg	58	49	1	i	2	0	1127.11	0.54	0.68
BFE_203	0	1	02	2	8	4.302966e+01	2204.jpg	2217.jpg	60	59	0	i	6	1	1018.66	0.50	0.51
BFE_203	0	1	02	2	9	4.701722e+01	2204.jpg	2211.jpg	60	62	0	i	6	1	943.08	0.50	0.47
BFE_203	0	1	02	2	10	5.002087e+01	2108.jpg	2121.jpg	77	44	0	i	4	1	827.44	0.21	0.85
BFE_203	0	1	02	2	11	5.302417e+01	1110.jpg	1102.jpg	19	21	1	u	5	1	1024.13	0.54	0.52
BFE_203	0	1	02	2	12	5.802981e+01	2116.jpg	2219.jpg	52	56	1	u	2	1	1098.53	0.67	0.56
BFE_203	0	1	02	2	13	6.201766e+01	1202.jpg	1107.jpg	38	4	0	i	3	1	726.64	0.20	0.80
BFE_203	0	1	02	2	14	7.102774e+01	2219.jpg	2115.jpg	56	53	0	i	2	1	820.57	0.56	0.62
BFE_203	0	1	02	2	15	7.403106e+01	1104.jpg	1113.jpg	11	13	0	i	1	1	1273.24	0.69	0.66
BFE_203	0	1	02	2	16	7.901996e+01	2219.jpg	2107.jpg	56	55	0	i	2	1	972.33	0.56	0.57
BFE_203	0	1	02	2	17	8.502676e+01	1105.jpg	1113.jpg	17	13	0	u	1	0	877.53	0.57	0.66
BFE_203	0	1	02	2	18	8.803007e+01	2201.jpg	2113.jpg	57	50	0	i	2	1	874.22	0.54	0.67
BFE_203	0	1	02	2	19	9.301906e+01	1201.jpg	1209.jpg	15	16	1	u	1	1	973.23	0.60	0.58
BFE_203	0	1	02	2	20	9.702349e+01	2216.jpg	2115.jpg	51	53	0	u	2	0	888.81	0.67	0.62
BFE_203	0	1	02	2	21	1.020291e+02	1109.jpg	1105.jpg	12	17	1	u	1	1	1035.18	0.67	0.57
BFE_203	0	1	02	2	22	1.070181e+02	1117.jpg	1201.jpg	14	15	0	i	1	1	718.24	0.64	0.60
BFE_203	0	1	02	2	23	1.100214e+02	1107.jpg	1108.jpg	4	37	1	u	3	1	994.93	0.80	0.21
BFE_203	0	1	02	2	24	1.130247e+02	1105.jpg	1206.jpg	17	7	0	i	1	1	1063.59	0.57	0.74
BFE_203	0	1	02	2	25	1.250215e+02	2102.jpg	2113.jpg	49	50	0	i	2	1	1122.75	0.68	0.67
BFE_203	0	1	02	2	26	1.290260e+02	1113.jpg	1209.jpg	13	16	1	u	1	1	1030.29	0.66	0.58
BFE_203	0	1	02	2	27	1.320294e+02	2113.jpg	2205.jpg	50	48	1	u	2	1	1114.88	0.67	0.70
BFE_203	0	1	02	2	28	1.390205e+02	1111.jpg	1104.jpg	18	11	1	i	1	0	659.76	0.57	0.69
BFE_203	0	1	02	2	29	1.420240e+02	2104.jpg	2103.jpg	58	54	1	i	2	0	568.35	0.54	0.59
BFE_203	0	1	02	2	30	1.490317e+02	1111.jpg	1114.jpg	18	8	1	i	1	0	752.55	0.57	0.73
BFE_203	0	1	02	2	31	1.540206e+02	2107.jpg	2103.jpg	55	54	1	i	2	0	723.66	0.57	0.59
BFE_203	0	1	02	2	32	1.580251e+02	2219.jpg	2104.jpg	56	58	0	i	2	1	807.17	0.56	0.54
BFE_203	0	1	02	2	33	1.630308e+02	1214.jpg	1217.jpg	22	20	1	u	5	1	745.56	0.49	0.53
BFE_203	0	1	02	2	34	1.690209e+02	2219.jpg	2113.jpg	56	50	0	i	2	1	779.45	0.56	0.67
BFE_203	0	1	02	2	35	1.730254e+02	2102.jpg	2116.jpg	49	52	0	u	2	0	1014.88	0.68	0.67
BFE_203	0	1	02	2	36	1.760287e+02	1115.jpg	1117.jpg	10	14	1	i	1	0	851.58	0.71	0.64
BFE_203	0	1	02	2	37	1.790320e+02	1111.jpg	1204.jpg	18	9	1	u	1	1	1296.29	0.57	0.72
BFE_203	0	1	02	2	38	1.820188e+02	2102.jpg	2107.jpg	49	55	0	i	2	1	1085.49	0.68	0.57
BFE_203	0	1	02	2	39	1.860232e+02	1206.jpg	1204.jpg	7	9	1	u	1	1	873.09	0.74	0.72
BFE_203	0	1	02	2	40	1.900277e+02	2201.jpg	2115.jpg	57	53	0	u	2	0	1068.59	0.54	0.62
BFE_203	0	1	02	2	41	1.960178e+02	1111.jpg	1117.jpg	18	14	1	u	1	1	846.50	0.57	0.64
BFE_203	0	1	02	2	42	2.050278e+02	1111.jpg	1105.jpg	18	17	1	u	1	1	820.46	0.57	0.57
BFE_203	0	1	02	2	43	2.080312e+02	2115.jpg	2103.jpg	53	54	1	i	2	0	977.10	0.62	0.59
BFE_203	0	1	02	2	44	2.120190e+02	1111.jpg	1209.jpg	18	16	1	u	1	1	901.25	0.57	0.58
